ALL abundances NOT listed below differ from solar by  -0.53 dex
Fe Linelist for KOI-3158 [Kepler-444] (start: 2016.04.10; end: 2016.06.23); [rem
#OVER72: T= 5172,[g]=4.56,[Fe/H]=-0.53,vt=1.64E+05    vt= 1.64 M/H=-0.53        

Abundance Results for Species Fe I         (input abundance =   6.970)
wavelength         ID      EP   logGF     EWin   logRWin     abund   delavg
  4779.439   26.00000   3.420  -2.020    39.00    -5.088     6.774   -0.215
  4788.757   26.00000   3.240  -1.760    62.20    -4.886     6.691   -0.298
  5054.643   26.00000   3.640  -1.920    38.30    -5.120     6.879   -0.109
  5322.041   26.00000   2.280  -2.800    58.80    -4.957     6.611   -0.377
  5379.574   26.00000   3.690  -1.510    53.60    -5.002     6.751   -0.237
  5522.447   26.00000   4.210  -1.550    33.50    -5.217     7.004    0.016
  5543.936   26.00000   4.220  -1.140    52.70    -5.022     6.907   -0.081
  5546.500   26.00000   4.370  -1.310    41.30    -5.128     7.058    0.070
  5546.991   26.00000   4.220  -1.910    24.80    -5.350     7.196    0.207
  5560.207   26.00000   4.430  -1.190    39.70    -5.146     6.978   -0.011
  5587.574   26.00000   4.140  -1.850    32.10    -5.241     7.198    0.210
  5646.684   26.00000   4.260  -2.500     5.00    -6.053     7.045    0.057
  5651.469   26.00000   4.470  -2.000    12.70    -5.648     7.203    0.214
  5652.318   26.00000   4.260  -1.950    18.30    -5.490     7.114    0.126
  5661.346   26.00000   4.280  -1.740    15.40    -5.565     6.836   -0.152
  5667.518   26.00000   4.180  -1.580    36.20    -5.195     7.043    0.054
  5679.023   26.00000   4.650  -0.920    46.90    -5.083     7.039    0.051
  5680.240   26.00000   4.190  -2.580     7.80    -5.862     7.254    0.266
  5731.762   26.00000   4.260  -1.300    46.00    -5.096     7.007    0.018
  5741.846   26.00000   4.260  -1.850    23.40    -5.390     7.141    0.153
  5752.032   26.00000   4.550  -1.180    42.70    -5.129     7.130    0.142
  5775.081   26.00000   4.220  -1.300    47.30    -5.087     6.984   -0.005
  5778.450   26.00000   2.590  -3.480    21.20    -5.435     6.918   -0.070
  5809.218   26.00000   3.880  -1.840    39.10    -5.172     7.034    0.046
  6078.999   26.00000   4.650  -1.120    32.40    -5.273     6.995    0.007
  6085.259   26.00000   2.760  -3.100    59.10    -5.013     7.390    0.402
  6098.245   26.00000   4.560  -1.880    10.00    -5.785     7.047    0.058
  6151.617   26.00000   2.180  -3.300    49.60    -5.094     6.803   -0.185
  6159.368   26.00000   4.610  -1.970     7.30    -5.926     7.041    0.053
  6165.360   26.00000   4.140  -1.470    33.80    -5.261     6.832   -0.156
  6187.987   26.00000   3.940  -1.720    36.60    -5.228     6.920   -0.068
  6220.776   26.00000   3.880  -2.460    14.00    -5.648     7.064    0.075
  6226.730   26.00000   3.880  -2.220    20.50    -5.483     7.018    0.030
  6229.228   26.00000   2.850  -2.810    32.70    -5.280     6.758   -0.230
  6240.645   26.00000   2.220  -3.230    47.60    -5.118     6.738   -0.251
  6293.924   26.00000   4.840  -1.720     7.40    -5.930     7.037    0.048
  6380.743   26.00000   4.190  -1.380    40.30    -5.200     6.901   -0.087
  6392.538   26.00000   2.280  -4.030    19.30    -5.520     7.044    0.056
  6597.557   26.00000   4.790  -1.070    31.60    -5.320     7.060    0.072
  6608.024   26.00000   2.280  -4.030    19.60    -5.528     7.041    0.053
  6627.540   26.00000   4.550  -1.680    19.30    -5.536     7.143    0.155
  6703.567   26.00000   2.760  -3.160    34.30    -5.291     7.017    0.028
  6710.316   26.00000   1.490  -4.880    18.10    -5.569     6.964   -0.024
  6713.745   26.00000   4.800  -1.600    13.00    -5.713     7.127    0.139
  6716.222   26.00000   4.580  -1.920     6.20    -6.035     6.865   -0.123
  6725.353   26.00000   4.100  -2.300    11.50    -5.767     7.021    0.033
  6726.666   26.00000   4.610  -1.130    32.90    -5.311     6.950   -0.038
  6733.151   26.00000   4.640  -1.580    16.20    -5.619     7.045    0.057
  6739.520   26.00000   1.560  -4.790    14.40    -5.670     6.835   -0.153
  6752.716   26.00000   4.640  -1.300    23.60    -5.457     6.963   -0.026
average abundance =  6.988     std. deviation =  0.151     #lines =  50
E.P. correlation:  slope =   0.064  intercept =   6.742  corr. coeff. =   0.387
R.W. correlation:  slope =  -0.162  intercept =   6.115  corr. coeff. =  -0.321
wav. correl.:  slope =   4.838D-05  intercept =   6.698  corr. coeff. =   0.168

Abundance Results for Species Fe II        (input abundance =   6.970)
wavelength         ID      EP   logGF     EWin   logRWin     abund   delavg
  4620.521   26.10000   2.828  -3.315    23.90    -5.286     6.870   -0.087
  5197.577   26.10000   3.230  -2.348    44.50    -5.067     6.772   -0.186
  5234.625   26.10000   3.221  -2.279    47.00    -5.047     6.742   -0.215
  5264.812   26.10000   3.230  -3.133    20.30    -5.414     6.998    0.041
  5414.073   26.10000   3.221  -3.645     9.40    -5.760     7.086    0.129
  5425.257   26.10000   3.199  -3.390    19.30    -5.449     7.193    0.236
  6149.258   26.10000   3.889  -2.841    10.60    -5.764     7.019    0.062
  6247.557   26.10000   3.892  -2.435    19.00    -5.517     6.940   -0.017
  7711.723   26.10000   3.903  -2.683    13.80    -5.747     6.995    0.038
average abundance =  6.957     std. deviation =  0.145     #lines =   9
 No statistics done for E.P. trends
R.W. correlation:  slope =  -0.384  intercept =   4.863  corr. coeff. =  -0.741
wav. correl.:  slope =   4.025D-05  intercept =   6.728  corr. coeff. =   0.251
